/absorption data CdTe taken from S. Adachi
/"Optical constants of crystalline and amorphous semiconductors"
/pp.538-545
/lambda[nm]	alfa[m^-1]
368.8783	57300000
370.8645	56500000
372.8722	54800000
374.9017	52300000
376.9535	49700000
379.0278	47000000
381.1251	44400000
383.2457	41900000
385.3901	39600000
387.5586	37400000
389.7517	35500000
391.7220	33700000
394.2130	32100000
396.4823	30600000
398.9060	29300000
401.2298	28100000
403.5807	26900000
405.9594	25800000
408.3663	24900000
410.8019	23900000
413.2667	23100000
415.7612	22300000
418.2861	21500000
420.8418	20800000
423.4290	20100000
426.0481	19400000
428.5517	18800000
431.5350	18200000
434.2557	17700000
437.0109	17100000
439.8013	16600000
442.6276	16200000
445.4905	15700000
448.3906	15200000
451.3287	14800000
454.3056	14400000
457.3220	14000000
460.3788	13600000
463.4766	13300000
466.6165	12900000
469.7992	12600000
473.2061	12200000
476.4796	11900000
479.7988	11600000
483.1645	11300000
486.5777	11000000
490.0395	10700000
493.5510	10400000
497.1131	10100000
500.7270	9790000
504.3938	9440000
508.1148	9110000
511.8910	8780000
515.7238	8470000
519.6144	8200000
523.7854	7960000
527.7991	7730000
531.8747	7540000
536.0138	7350000
540.2179	7170000
544.4884	6980000
548.8269	6800000
553.2352	6630000
557.7148	6430000
562.2676	6290000
566.8953	6060000
571.5998	5950000
576.3831	5850000
581.2471	5730000
586.4711	5590000
591.5076	5520000
596.6314	5430000
601.8447	5240000
607.1499	5170000
612.5494	5030000
618.0459	4890000
623.6419	4710000
629.3401	4620000
635.1434	4450000
641.0548	4320000
647.0772	4240000
653.2139	4210000
659.4681	4140000
666.2010	4050000
671.9783	3990000
679.3425	3900000
686.1096	3820000
693.0129	3670000
700.0565	3540000
707.2447	3530000
714.5821	3360000
722.0734	3250000
729.7234	3110000
737.5372	3030000
745.5201	2950000
753.6778	2870000
762.0160	2870000
771.0199	2850000
779.7484	2660000
788.6768	2510000
797.8121	2370000
807.1615	1940000
816.7325	2270000
826.5333	1520000
852.0962	3600
