> Optical constants of ZnS, Zinc Sulphide
> from: S. Adachi, "Optical constants of crystalline and amprphous semiconductors", Kluwer Academic Publishers, 1999.
> Extrapolated outside the data range with the purpose to illustrate a graded Zn(O,S) material
> Distributed with SCAPS2.8, may 2009, MB
lambda (nm)	alpha (1/m)
100.0	7.7990E+05
110.0	7.9750E+05
120.0	8.1670E+05
130.0	8.3560E+05
140.0	8.4900E+05
150.0	8.5900E+05
160.0	8.7920E+05
170.0	9.0570E+05
180.0	8.9550E+05
190.0	8.4280E+05
200.0	8.4610E+05
210.0	9.5620E+05
220.0	8.8300E+05
230.0	5.4630E+05
240.0	3.3070E+05
250.0	2.8140E+05
260.0	2.7930E+05
270.0	2.5570E+05
280.0	2.2910E+05
290.0	2.0900E+05
300.0	1.9260E+05
310.0	1.7800E+05
320.0	1.6670E+05
330.0	1.6060E+05
340.0	1.2410E+05
350.0	3.0160E+04
360.0	1.3690E+04
370.0	1.2160E+04
380.0	1.1130E+04
390.0	8.8350E+03
400.0	7.3550E+03
410.0	6.8450E+03
420.0	6.5820E+03
430.0	6.2490E+03
440.0	5.9510E+03
450.0	5.7640E+03
460.0	5.6350E+03
470.0	5.5100E+03
480.0	5.3910E+03
490.0	5.2880E+03
500.0	5.1980E+03
510.0	5.1110E+03
520.0	5.0280E+03
530.0	4.9480E+03
540.0	4.8710E+03
550.0	4.7960E+03
560.0	4.7230E+03
570.0	4.6520E+03
580.0	4.5820E+03
590.0	4.5130E+03
600.0	4.4460E+03
600.0	9.8900E-01
